# Output of JWST_backgrounds version 1.1.1
# background cache version 1.0

# for RA=261.6833333, DEC=-73.3322222 On calendar day 169
# Columns: 
# - Wavelength [micron] 
# - Total background (MJy/sr)
# - In-field zodiacal light (MJy/sr)
# - In-field galactic light (MJy/sr)
# - Stray light (MJy/sr)
# - Thermal self-emission (MJy/sr)
0.500000    0.1763    0.1454    0.0040    0.0269    0.0000
0.600000    0.2502    0.1922    0.0057    0.0523    0.0000
0.700000    0.2778    0.2158    0.0067    0.0553    0.0000
0.800000    0.2888    0.2228    0.0078    0.0582    0.0000
0.900000    0.2864    0.2188    0.0082    0.0594    0.0000
1.000000    0.3165    0.2084    0.0086    0.0995    0.0000
1.100000    0.3001    0.1947    0.0087    0.0967    0.0000
1.200000    0.2822    0.1795    0.0089    0.0938    0.0000
1.300000    0.2681    0.1675    0.0091    0.0915    0.0000
1.400000    0.2577    0.1586    0.0095    0.0896    0.0000
1.500000    0.2474    0.1499    0.0098    0.0877    0.0000
1.600000    0.2374    0.1414    0.0101    0.0859    0.0000
1.700000    0.2278    0.1333    0.0103    0.0842    0.0000
1.800000    0.2194    0.1257    0.0106    0.0832    0.0000
1.900000    0.2109    0.1186    0.0107    0.0816    0.0000
2.000000    0.2030    0.1120    0.0109    0.0801    0.0000
2.100000    0.1966    0.1058    0.0110    0.0798    0.0000
2.200000    0.1907    0.1001    0.0111    0.0796    0.0000
2.300000    0.1843    0.0936    0.0114    0.0793    0.0000
2.400000    0.1785    0.0877    0.0117    0.0792    0.0000
2.500000    0.1732    0.0822    0.0119    0.0791    0.0000
2.600000    0.1683    0.0771    0.0121    0.0790    0.0000
2.700000    0.1638    0.0725    0.0124    0.0790    0.0000
2.800000    0.1598    0.0682    0.0126    0.0790    0.0000
2.900000    0.1348    0.0642    0.0128    0.0577    0.0000
3.000000    0.1313    0.0606    0.0130    0.0577    0.0000
3.100000    0.1272    0.0572    0.0132    0.0568    0.0000
3.200000    0.1262    0.0540    0.0152    0.0570    0.0000
3.300000    0.1348    0.0511    0.0229    0.0608    0.0000
3.400000    0.1167    0.0484    0.0140    0.0544    0.0000
3.500000    0.1262    0.0572    0.0139    0.0550    0.0000
3.700000    0.1328    0.0636    0.0144    0.0548    0.0000
4.000000    0.1573    0.0862    0.0152    0.0559    0.0000
4.250000    0.1819    0.1212    0.0157    0.0450    0.0000
4.500000    0.2408    0.1747    0.0164    0.0497    0.0000
4.750000    0.3224    0.2490    0.0171    0.0562    0.0000
5.000000    0.4281    0.3454    0.0181    0.0646    0.0000
5.100000    0.4879    0.3988    0.0187    0.0704    0.0001
5.200000    0.5541    0.4583    0.0189    0.0768    0.0001
5.300000    0.6392    0.5243    0.0271    0.0876    0.0001
5.400000    0.7107    0.5970    0.0213    0.0923    0.0002
5.500000    0.8036    0.6765    0.0247    0.1021    0.0002
5.700000    1.0362    0.8569    0.0471    0.1318    0.0004
5.900000    1.2673    1.0667    0.0467    0.1532    0.0007
6.100000    1.6112    1.3063    0.1062    0.1976    0.0011
6.300000    2.1027    1.5759    0.2341    0.2909    0.0017
6.500000    2.2512    1.8751    0.1133    0.2601    0.0027
6.700000    2.5954    2.2029    0.1010    0.2876    0.0040
6.900000    3.0137    2.5580    0.1171    0.3328    0.0058
7.100000    3.4559    2.9389    0.1296    0.3791    0.0083
7.300000    3.9875    3.3437    0.1824    0.4497    0.0117
7.500000    4.6456    3.7702    0.3004    0.5589    0.0162
7.700000    5.2602    4.2160    0.3746    0.6475    0.0221
7.900000    5.6764    4.6788    0.3074    0.6602    0.0299
8.100000    6.0746    5.1560    0.2174    0.6611    0.0401
8.300000    6.5955    5.6451    0.1959    0.7014    0.0531
8.500000    7.1972    6.1436    0.2168    0.7670    0.0697
8.700000    7.7564    6.6490    0.2028    0.8138    0.0907
8.900000    8.2298    7.1590    0.1279    0.8257    0.1172
9.100000    8.7989    7.6711    0.1079    0.8696    0.1502
9.300000    9.3940    8.1833    0.0990    0.9204    0.1912
9.500000    10.0063    8.6935    0.0962    0.9750    0.2415
9.700000    10.6332    9.1998    0.1045    1.0258    0.3031
9.900000    11.2729    9.7003    0.1096    1.0850    0.3780
10.100000    11.9014    10.1936    0.1049    1.1347    0.4682
10.300000    12.5365    10.6780    0.1010    1.1811    0.5764
10.500000    13.2107    11.1522    0.1155    1.2377    0.7053
10.700000    13.8908    11.6151    0.1267    1.2910    0.8580
10.900000    14.6017    12.0657    0.1485    1.3495    1.0380
11.100000    15.4356    12.5030    0.2370    1.4476    1.2480
11.300000    16.3558    12.9262    0.3669    1.5697    1.4930
11.500000    17.0030    13.3346    0.3137    1.5777    1.7770
11.700000    17.5804    13.7277    0.2017    1.5479    2.1030
11.900000    18.3524    14.1052    0.1907    1.5786    2.4780
12.100000    19.2438    14.5195    0.1994    1.6189    2.9060
12.300000    20.2518    14.9750    0.2117    1.6720    3.3930
12.500000    21.3074    15.4201    0.2211    1.7222    3.9440
12.700000    22.4187    15.8543    0.2284    1.7701    4.5660
12.900000    23.5491    16.2773    0.2081    1.7998    5.2640
13.100000    24.7254    16.6888    0.1714    1.8182    6.0470
13.300000    26.0098    17.0887    0.1539    1.8472    6.9200
13.500000    27.4092    17.4768    0.1543    1.8861    7.8920
13.700000    28.8904    17.8530    0.1472    1.9192    8.9710
13.900000    30.4686    18.2173    0.1341    1.9473    10.1700
14.100000    32.1786    18.5695    0.1358    1.9833    11.4900
14.300000    33.9947    18.9099    0.1308    2.0140    12.9400
14.500000    35.9458    19.2383    0.1247    2.0428    14.5400
14.700000    38.0294    19.5548    0.1158    2.0688    16.2900
14.900000    40.2795    19.8596    0.1128    2.0971    18.2100
15.100000    42.6993    20.1528    0.1113    2.1252    20.3100
15.300000    45.2912    20.4345    0.1065    2.1502    22.6000
15.500000    48.1114    20.7048    0.1208    2.1858    25.1000
16.500000    65.5271    21.8929    0.1272    2.3070    41.2000
17.500000    90.4040    22.8276    0.1335    2.4029    65.0400
18.500000    125.6335    23.5376    0.1396    2.4763    99.4800
19.500000    174.9281    24.0521    0.1457    2.5302    148.2000
20.500000    243.0183    24.3989    0.1520    2.5675    215.9000
21.500000    335.4522    24.6034    0.1582    2.5906    308.1000
22.500000    458.8548    24.6886    0.1644    2.6018    431.4000
23.500000    620.7481    24.6744    0.1706    2.6031    593.3000
24.500000    829.5512    24.5781    0.1768    2.5962    802.2000
25.500000    1093.9472    24.2003    0.1849    2.5620    1067.0000
26.500000    1424.2624    23.5647    0.1949    2.5028    1398.0000
27.500000    1831.5482    22.9021    0.2051    2.4410    1806.0000
28.500000    2323.8159    22.2227    0.2156    2.3776    2299.0000
29.500000    2914.0747    21.5349    0.2263    2.3135    2890.0000
30.500000    3610.3318    20.8454    0.2371    2.2493    3587.0000
31.000000    3920.9616    20.5016    0.2426    2.2174    3898.0000
